Folder: ClaritySpectra/__exampleData/ML Plastics copy/top class a spectra

Note: __exampleData/ML Plastics copy/top class a spectra/Class_A_All_Summary.txt
All Class A Classified Spectra Summary
Generated: 2025-06-01 20:29:16
Total Class A spectra: 11
File format: TXT
Data type: processed

Classification Results:
  1. X= 93, Y= 31, Prob=0.9000, File=Steno-CT-33_01_Y031_X093.txt
  2. X=257, Y= 23, Prob=0.8800, File=Steno-CT-33_01_Y023_X257.txt
  3. X= 60, Y= 27, Prob=0.6700, File=Steno-CT-33_01_Y027_X060.txt
  4. X=116, Y= 32, Prob=0.6500, File=Steno-CT-33_01_Y032_X116.txt
  5. X=124, Y= 42, Prob=0.6000, File=Steno-CT-33_01_Y042_X124.txt
  6. X=123, Y= 45, Prob=0.6000, File=Steno-CT-33_01_Y045_X123.txt
  7. X=123, Y= 46, Prob=0.5700, File=Steno-CT-33_01_Y046_X123.txt
  8. X=127, Y= 53, Prob=0.5700, File=Steno-CT-33_01_Y053_X127.txt
  9. X=130, Y= 39, Prob=0.5500, File=Steno-CT-33_01_Y039_X130.txt
 10. X= 52, Y= 38, Prob=0.5400, File=Steno-CT-33_01_Y038_X052.txt
 11. X=127, Y= 49, Prob=0.5100, File=Steno-CT-33_01_Y049_X127.txt

Note: __exampleData/ML Plastics copy/top class a spectra/Class_A_Top_Summary.txt
Top 10 Class A Spectra Summary
Generated: 2025-06-01 20:29:07
Total Class A positions: 11
Saved spectra: 10
File format: TXT
Data type: processed

Ranking by Classification Probability:
 1. X= 93, Y= 31, Prob=0.9000
 2. X=257, Y= 23, Prob=0.8800
 3. X= 60, Y= 27, Prob=0.6700
 4. X=116, Y= 32, Prob=0.6500
 5. X=124, Y= 42, Prob=0.6000
 6. X=123, Y= 45, Prob=0.6000
 7. X=123, Y= 46, Prob=0.5700
 8. X=127, Y= 53, Prob=0.5700
 9. X=130, Y= 39, Prob=0.5500
10. X= 52, Y= 38, Prob=0.5400

Note: README.md
# ClariSpectra - Raman Spectrum Analysis Tool

ClariSpectra is a comprehensive desktop application for analyzing and identifying Raman spectra. It provides a user-friendly interface for importing, processing, and matching Raman spectra against a database of known materials.

## Features

- **Spectrum Analysis**
  - Import and visualize Raman spectra
  - Background subtraction
  - Peak detection and analysis
  - Interactive plotting and zooming

- **Database Management**
  - Store and organize Raman spectra
  - Edit metadata and classifications
  - Batch import capabilities
  - View and search database contents

- **Search and Matching**
  - Multiple search algorithms:
    - Correlation-based matching
    - Peak-based matching
    - Machine learning-based matching
  - Advanced filtering options
  - Confidence scoring for matches  

- **Export and Reporting**
  - Generate detailed match reports
  - Export results to PDF, TXT, and CSV formats
  - Create correlation heatmaps
  - Save processed spectra

## Installation

1. Clone the repository:
```bash
git clone https://github.com/yourusername/ClariSpectra.git
cd ClariSpectra
```

2. Install dependencies:
```bash
pip install -r requirements.txt
```

3. Run the application:
```bash
python raman_analysis_app.py
```

## Dependencies

- Python 3.6+
- Core requirements:
  - numpy >= 1.16.0
  - matplotlib >= 3.0.0
  - scipy >= 1.2.0
  - pandas >= 0.25.0

- Optional packages:
  - reportlab >= 3.5.0 (for PDF export)
  - scikit-learn >= 0.21.0 (for ML search functionality)
  - pyinstaller >= 5.0.0 (for packaging)

## Usage

1. **Importing Spectra**
   - Use the "Import" button to load Raman spectra files
   - Supported formats: CSV, TXT, and other common data formats

2. **Processing Spectra**
   - Apply background subtraction
   - Detect and analyze peaks
   - Adjust visualization parameters

3. **Database Operations**
   - Add spectra to the database
   - Edit metadata and classifications
   - Search and filter database contents

4. **Matching and Analysis**
   - Choose search algorithm
   - Set matching parameters
   - View and export results

## Project Structure

- `raman_analysis_app.py` - Main application GUI
- `raman_spectra.py` - Core spectrum processing functionality
- `check_dependencies.py` - Dependency verification
- `requirements.txt` - Project dependencies
- `raman_database.pkl` - Database of Raman spectra

## Contributing

Contributions are welcome! Please feel free to submit a Pull Request.

## License

MIT

## Author

Aaron Celestian, Ph.D.
Curator of Mineal Sciences
Natural History Museum of Los Angeles

## Acknowledgments

- RRUFF database for reference spectra
    www.rruff.info
- SLOPP and SLOPP-E for reference plastic spectra; 
    https://rochmanlab.wordpress.com/spectral-libraries-for-microplastics-research/
- Scientific community for Raman spectroscopy resources

File: Class_A_Top_01_X93_Y31_prob0.900.txt
# Class A Spectrum - Top: 1
# Position: X=93, Y=31
# Classification Probability: 0.9000
# Data Type: processed
# Original Filename: Steno-CT-33_01_Y031_X093.txt
#
Wavenumber Intensity
100.0 -0.216313
117.043 17.2035
134.085 3.40646
151.128 4.60103
168.17 7.0497
185.213 6.32398
202.256 2.78992
219.298 4.89454
236.341 15.1191
253.383 15.7442
270.426 6.9973
287.469 8.27419
304.511 14.679
321.554 14.3479
338.596 11.8332
355.639 8.44328
372.682 11.2372
389.724 20.6532
406.767 8.8988
423.81 9.49438
440.852 12.8902
457.895 4.45229
474.937 15.847
491.98 12.1183
509.023 8.0398
526.065 15.8239
543.108 7.28577
560.15 12.6891
577.193 15.2867
594.236 2.91929
611.278 9.76731
628.321 6.56837
645.363 4.51525
662.406 7.29947
679.449 11.5844
696.491 9.8391
713.534 15.5025
730.576 5.13054
747.619 12.5413
764.662 17.4341
781.704 13.101
798.747 8.44363
815.789 19.404
832.832 11.4253
849.875 17.3184
866.917 18.5133
883.96 15.2816
901.003 13.064
918.045 12.8222
935.088 4.48189
952.13 13.2182
969.173 11.6685
986.216 9.39907
1003.26 10.1005
1020.3 13.2348
1037.34 14.4264
1054.39 20.5659
1071.43 15.5693
1088.47 11.7738
1105.51 1.69644
1122.56 4.71354
1139.6 13.8778
1156.64 7.04821
1173.68 15.0603
1190.73 11.6335
1207.77 8.13217
1224.81 13.0413
1241.85 14.8905
1258.9 -6.30649
1275.94 6.89433
1292.98 13.9917
1310.03 -98.0783
1327.07 1317.8
1344.11 585.187
1361.15 13.1965
1378.2 14.3568
1395.24 10.284
1412.28 4.76854
1429.32 12.9554
1446.37 6.73661
1463.41 13.8021
1480.45 2.74735
1497.49 5.99203
1514.54 8.76672
1531.58 7.42924
1548.62 11.4431
1565.66 6.66131
1582.71 6.43766
1599.75 6.57194
1616.79 12.2914
1633.83 10.546
1650.88 7.97904
1667.92 12.1682
1684.96 4.21918
1702.01 10.3623
1719.05 10.6418
1736.09 11.7473
1753.13 14.5721
1770.18 9.32028
1787.22 9.6971
1804.26 5.45734
1821.3 1.73211
1838.35 4.64109
1855.39 8.269
1872.43 9.6778
1889.47 5.83359
1906.52 10.557
1923.56 7.33218
1940.6 0.814625
1957.64 4.89108
1974.69 5.90461
1991.73 7.73305
2008.77 -0.515941
2025.81 0.0
2042.86 0.0
2059.9 0.0
2076.94 0.0
2093.98 0.0
2111.03 0.0
2128.07 0.0
2145.11 0.0
2162.16 0.0
2179.2 0.0
2196.24 0.0
2213.28 0.0
2230.33 0.0
2247.37 0.0
2264.41 0.0
2281.45 0.0
2298.5 0.0
2315.54 0.0
2332.58 0.0
2349.62 0.0
2366.67 0.0
2383.71 0.0
2400.75 0.0
2417.79 0.0
2434.84 0.0
2451.88 0.0
2468.92 0.0
2485.96 0.0
2503.01 0.0
2520.05 0.0
2537.09 0.0
2554.14 0.0
2571.18 0.0
2588.22 0.0
2605.26 0.0
2622.31 0.0
2639.35 0.0
2656.39 0.0
2673.43 0.0
2690.48 0.0
2707.52 0.0
2724.56 0.0
2741.6 0.0
2758.65 0.0
2775.69 0.0
2792.73 0.0
2809.77 0.0
2826.82 0.0
2843.86 0.0
2860.9 0.0
2877.94 0.0
2894.99 0.0
2912.03 0.0
2929.07 0.0
2946.12 0.0
2963.16 0.0
2980.2 0.0
2997.24 0.0
3014.29 0.0
3031.33 0.0
3048.37 0.0
3065.41 0.0
3082.46 0.0
3099.5 0.0
3116.54 0.0
3133.58 0.0
3150.63 0.0
3167.67 0.0
3184.71 0.0
3201.75 0.0
3218.8 0.0
3235.84 0.0
3252.88 0.0
3269.92 0.0
3286.97 0.0
3304.01 0.0
3321.05 0.0
3338.1 0.0
3355.14 0.0
3372.18 0.0
3389.22 0.0
3406.27 0.0
3423.31 0.0
3440.35 0.0
3457.39 0.0
3474.44 0.0
3491.48 0.0
3500.0 0.0

File: Class_A_Top_04_X116_Y32_prob0.650.txt
# Class A Spectrum - Top: 4
# Position: X=116, Y=32
# Classification Probability: 0.6500
# Data Type: processed
# Original Filename: Steno-CT-33_01_Y032_X116.txt
#
Wavenumber Intensity
100.0 1.12198
117.043 15.9493
134.085 10.8084
151.128 13.9341
168.17 10.6899
185.213 9.67545
202.256 5.75861
219.298 4.20402
236.341 2.4966
253.383 2.91378
270.426 10.8459
287.469 15.9332
304.511 13.8691
321.554 -0.71506
338.596 11.4395
355.639 5.55661
372.682 14.9459
389.724 5.77815
406.767 6.98785
423.81 5.91868
440.852 7.59281
457.895 6.86367
474.937 7.23126
491.98 10.3611
509.023 9.42331
526.065 10.5456
543.108 3.00325
560.15 3.73519
577.193 9.76673
594.236 3.32032
611.278 7.36202
628.321 1.78773
645.363 1.14999
662.406 4.36581
679.449 4.93838
696.491 13.9919
713.534 1.29027
730.576 16.4841
747.619 7.25627
764.662 5.98985
781.704 8.74392
798.747 14.9838
815.789 17.5284
832.832 17.0761
849.875 15.5028
866.917 15.6232
883.96 14.4434
901.003 17.2915
918.045 8.88378
935.088 10.1208
952.13 15.7706
969.173 17.3508
986.216 9.27455
1003.26 7.47912
1020.3 6.96955
1037.34 9.1841
1054.39 18.0511
1071.43 7.12485
1088.47 6.81277
1105.51 8.65304
1122.56 11.294
1139.6 8.54633
1156.64 5.45883
1173.68 6.08965
1190.73 12.1801
1207.77 1.19801
1224.81 8.2175
1241.85 4.91637
1258.9 15.4907
1275.94 7.42437
1292.98 10.9549
1310.03 4.3089
1327.07 10.8104
1344.11 5.22387
1361.15 15.1172
1378.2 16.5456
1395.24 4.59764
1412.28 7.6035
1429.32 13.5728
1446.37 13.2044
1463.41 11.6899
1480.45 -118.582
1497.49 1444.88
1514.54 2075.93
1531.58 61.5964
1548.62 5.74418
1565.66 21.3866
1582.71 8.28337
1599.75 4.93714
1616.79 4.24154
1633.83 15.6113
1650.88 10.5423
1667.92 12.8972
1684.96 13.5759
1702.01 11.2222
1719.05 7.46487
1736.09 10.4079
1753.13 2.56528
1770.18 9.32411
1787.22 11.6358
1804.26 2.6548
1821.3 13.8286
1838.35 15.6569
1855.39 13.8224
1872.43 9.02545
1889.47 10.0362
1906.52 6.2545
1923.56 3.65803
1940.6 7.67381
1957.64 9.07942
1974.69 10.9889
1991.73 8.01845
2008.77 -0.93843
2025.81 0.0
2042.86 0.0
2059.9 0.0
2076.94 0.0
2093.98 0.0
2111.03 0.0
2128.07 0.0
2145.11 0.0
2162.16 0.0
2179.2 0.0
2196.24 0.0
2213.28 0.0
2230.33 0.0
2247.37 0.0
2264.41 0.0
2281.45 0.0
2298.5 0.0
2315.54 0.0
2332.58 0.0
2349.62 0.0
2366.67 0.0
2383.71 0.0
2400.75 0.0
2417.79 0.0
2434.84 0.0
2451.88 0.0
2468.92 0.0
2485.96 0.0
2503.01 0.0
2520.05 0.0
2537.09 0.0
2554.14 0.0
2571.18 0.0
2588.22 0.0
2605.26 0.0
2622.31 0.0
2639.35 0.0
2656.39 0.0
2673.43 0.0
2690.48 0.0
2707.52 0.0
2724.56 0.0
2741.6 0.0
2758.65 0.0
2775.69 0.0
2792.73 0.0
2809.77 0.0
2826.82 0.0
2843.86 0.0
2860.9 0.0
2877.94 0.0
2894.99 0.0
2912.03 0.0
2929.07 0.0
2946.12 0.0
2963.16 0.0
2980.2 0.0
2997.24 0.0
3014.29 0.0
3031.33 0.0
3048.37 0.0
3065.41 0.0
3082.46 0.0
3099.5 0.0
3116.54 0.0
3133.58 0.0
3150.63 0.0
3167.67 0.0
3184.71 0.0
3201.75 0.0
3218.8 0.0
3235.84 0.0
3252.88 0.0
3269.92 0.0
3286.97 0.0
3304.01 0.0
3321.05 0.0
3338.1 0.0
3355.14 0.0
3372.18 0.0
3389.22 0.0
3406.27 0.0
3423.31 0.0
3440.35 0.0
3457.39 0.0
3474.44 0.0
3491.48 0.0
3500.0 0.0

File: Class_A_Top_06_X123_Y45_prob0.600.csv
# Class A Spectrum - Top 6
# Position: X=123, Y=45
# Classification Probability: 0.6000
# Data Type: processed
# Original Filename: Steno-CT-33_01_Y045_X123.txt
#
Wavenumber,Intensity
100.0,18.9062
117.043,150.147
134.085,35.6041
151.128,29.1233
168.17,65.752
185.213,47.1889
202.256,13.0416
219.298,7.24417
236.341,7.44703
253.383,10.075
270.426,4.10327
287.469,9.20515
304.511,11.5654
321.554,7.27266
338.596,2.98192
355.639,5.86576
372.682,0.137989
389.724,3.79526
406.767,1.03895
423.81,5.0318
440.852,11.4713
457.895,9.27496
474.937,12.694
491.98,11.6169
509.023,9.83157
526.065,7.78215
543.108,8.63139
560.15,12.5376
577.193,1.10484
594.236,-1.53653
611.278,5.6907
628.321,10.7599
645.363,10.4904
662.406,14.033
679.449,19.7178
696.491,17.6208
713.534,11.7909
730.576,11.3976
747.619,11.315
764.662,12.0856
781.704,9.10266
798.747,4.73162
815.789,13.5824
832.832,11.6521
849.875,8.88449
866.917,13.5398
883.96,21.1608
901.003,9.93427
918.045,3.11007
935.088,2.21612
952.13,10.3978
969.173,7.9079
986.216,14.3477
1003.26,8.38766
1020.3,89.7714
1037.34,33.0589
1054.39,15.6093
1071.43,10.0744
1088.47,21.6353
1105.51,13.8953
1122.56,9.57844
1139.6,7.64173
1156.64,9.464
1173.68,9.95651
1190.73,16.1354
1207.77,6.64295
1224.81,35.9198
1241.85,59.0913
1258.9,26.2107
1275.94,9.83158
1292.98,11.7454
1310.03,8.24939
1327.07,7.08427
1344.11,16.3419
1361.15,3.71703
1378.2,10.502
1395.24,10.2704
1412.28,11.0273
1429.32,6.00733
1446.37,8.74504
1463.41,7.35935
1480.45,2.80943
1497.49,5.59102
1514.54,6.57534
1531.58,7.70474
1548.62,11.6972
1565.66,4.99217
1582.71,9.6498
1599.75,9.09506
1616.79,6.50137
1633.83,-2.38146
1650.88,7.07953
1667.92,7.39274
1684.96,14.6142
1702.01,5.92533
1719.05,15.6274
1736.09,5.30687
1753.13,3.46737
1770.18,6.29263
1787.22,5.17071
1804.26,-2.68371
1821.3,4.94134
1838.35,10.4097
1855.39,12.3226
1872.43,16.1334
1889.47,5.60131
1906.52,14.128
1923.56,11.2055
1940.6,7.9712
1957.64,5.68314
1974.69,5.74399
1991.73,4.79159
2008.77,-1.00522
2025.81,0.0
2042.86,0.0
2059.9,0.0
2076.94,0.0
2093.98,0.0
2111.03,0.0
2128.07,0.0
2145.11,0.0
2162.16,0.0
2179.2,0.0
2196.24,0.0
2213.28,0.0
2230.33,0.0
2247.37,0.0
2264.41,0.0
2281.45,0.0
2298.5,0.0
2315.54,0.0
2332.58,0.0
2349.62,0.0
2366.67,0.0
2383.71,0.0
2400.75,0.0
2417.79,0.0
2434.84,0.0
2451.88,0.0
2468.92,0.0
2485.96,0.0
2503.01,0.0
2520.05,0.0
2537.09,0.0
2554.14,0.0
2571.18,0.0
2588.22,0.0
2605.26,0.0
2622.31,0.0
2639.35,0.0
2656.39,0.0
2673.43,0.0
2690.48,0.0
2707.52,0.0
2724.56,0.0
2741.6,0.0
2758.65,0.0
2775.69,0.0
2792.73,0.0
2809.77,0.0
2826.82,0.0
2843.86,0.0
2860.9,0.0
2877.94,0.0
2894.99,0.0
2912.03,0.0
2929.07,0.0
2946.12,0.0
2963.16,0.0
2980.2,0.0
2997.24,0.0
3014.29,0.0
3031.33,0.0
3048.37,0.0
3065.41,0.0
3082.46,0.0
3099.5,0.0
3116.54,0.0
3133.58,0.0
3150.63,0.0
3167.67,0.0
3184.71,0.0
3201.75,0.0
3218.8,0.0
3235.84,0.0
3252.88,0.0
3269.92,0.0
3286.97,0.0
3304.01,0.0
3321.05,0.0
3338.1,0.0
3355.14,0.0
3372.18,0.0
3389.22,0.0
3406.27,0.0
3423.31,0.0
3440.35,0.0
3457.39,0.0
3474.44,0.0
3491.48,0.0
3500.0,0.0

File: Class_A_Top_07_X123_Y46_prob0.570.csv
# Class A Spectrum - Top 7
# Position: X=123, Y=46
# Classification Probability: 0.5700
# Data Type: processed
# Original Filename: Steno-CT-33_01_Y046_X123.txt
#
Wavenumber,Intensity
100.0,11.7911
117.043,42.1494
134.085,17.7513
151.128,9.17618
168.17,33.5046
185.213,21.179
202.256,5.22716
219.298,3.29587
236.341,3.74785
253.383,0.367206
270.426,13.7315
287.469,2.51698
304.511,16.9894
321.554,8.26259
338.596,1.23408
355.639,6.34056
372.682,7.72705
389.724,3.30952
406.767,1.7658
423.81,-3.56418
440.852,5.2756
457.895,1.3157
474.937,16.9677
491.98,12.1305
509.023,11.6723
526.065,11.9536
543.108,-1.43064
560.15,4.01545
577.193,10.3005
594.236,6.20326
611.278,14.7055
628.321,9.4046
645.363,27.9218
662.406,9.43019
679.449,23.5717
696.491,40.3609
713.534,12.8204
730.576,10.711
747.619,14.2458
764.662,20.4881
781.704,11.8351
798.747,12.7872
815.789,17.5842
832.832,24.62
849.875,23.864
866.917,9.47482
883.96,15.7252
901.003,15.925
918.045,4.00513
935.088,4.25186
952.13,10.3777
969.173,3.10653
986.216,19.0094
1003.26,29.2405
1020.3,67.3752
1037.34,26.1461
1054.39,27.1821
1071.43,15.28
1088.47,23.5161
1105.51,11.0802
1122.56,12.4046
1139.6,8.79005
1156.64,4.25885
1173.68,3.50227
1190.73,22.8591
1207.77,23.4745
1224.81,29.1165
1241.85,55.5882
1258.9,31.3818
1275.94,11.4307
1292.98,5.55455
1310.03,6.94778
1327.07,8.308
1344.11,8.63258
1361.15,10.1531
1378.2,15.8499
1395.24,15.1126
1412.28,11.9293
1429.32,8.90128
1446.37,5.70153
1463.41,1.54204
1480.45,5.62449
1497.49,3.35664
1514.54,7.43441
1531.58,7.95147
1548.62,1.90858
1565.66,-3.23372
1582.71,6.83107
1599.75,9.14126
1616.79,8.82742
1633.83,9.73376
1650.88,8.97365
1667.92,6.03473
1684.96,12.5769
1702.01,4.64867
1719.05,1.81807
1736.09,8.96901
1753.13,10.9209
1770.18,8.28807
1787.22,13.5617
1804.26,6.69852
1821.3,1.30757
1838.35,12.5115
1855.39,11.1879
1872.43,11.5121
1889.47,15.4097
1906.52,19.332
1923.56,20.3183
1940.6,16.3377
1957.64,24.9605
1974.69,20.3907
1991.73,11.2651
2008.77,-0.625994
2025.81,0.0
2042.86,0.0
2059.9,0.0
2076.94,0.0
2093.98,0.0
2111.03,0.0
2128.07,0.0
2145.11,0.0
2162.16,0.0
2179.2,0.0
2196.24,0.0
2213.28,0.0
2230.33,0.0
2247.37,0.0
2264.41,0.0
2281.45,0.0
2298.5,0.0
2315.54,0.0
2332.58,0.0
2349.62,0.0
2366.67,0.0
2383.71,0.0
2400.75,0.0
2417.79,0.0
2434.84,0.0
2451.88,0.0
2468.92,0.0
2485.96,0.0
2503.01,0.0
2520.05,0.0
2537.09,0.0
2554.14,0.0
2571.18,0.0
2588.22,0.0
2605.26,0.0
2622.31,0.0
2639.35,0.0
2656.39,0.0
2673.43,0.0
2690.48,0.0
2707.52,0.0
2724.56,0.0
2741.6,0.0
2758.65,0.0
2775.69,0.0
2792.73,0.0
2809.77,0.0
2826.82,0.0
2843.86,0.0
2860.9,0.0
2877.94,0.0
2894.99,0.0
2912.03,0.0
2929.07,0.0
2946.12,0.0
2963.16,0.0
2980.2,0.0
2997.24,0.0
3014.29,0.0
3031.33,0.0
3048.37,0.0
3065.41,0.0
3082.46,0.0
3099.5,0.0
3116.54,0.0
3133.58,0.0
3150.63,0.0
3167.67,0.0
3184.71,0.0
3201.75,0.0
3218.8,0.0
3235.84,0.0
3252.88,0.0
3269.92,0.0
3286.97,0.0
3304.01,0.0
3321.05,0.0
3338.1,0.0
3355.14,0.0
3372.18,0.0
3389.22,0.0
3406.27,0.0
3423.31,0.0
3440.35,0.0
3457.39,0.0
3474.44,0.0
3491.48,0.0
3500.0,0.0

File: Class_A_Top_10_X52_Y38_prob0.540.csv
# Class A Spectrum - Top 10
# Position: X=52, Y=38
# Classification Probability: 0.5400
# Data Type: processed
# Original Filename: Steno-CT-33_01_Y038_X052.txt
#
Wavenumber,Intensity
100.0,1.58204
117.043,11.9128
134.085,12.0531
151.128,2.71943
168.17,16.4335
185.213,9.97191
202.256,7.76787
219.298,12.7714
236.341,8.85748
253.383,3.34391
270.426,3.88274
287.469,10.3999
304.511,8.64241
321.554,12.1303
338.596,11.5393
355.639,11.4016
372.682,6.34416
389.724,6.62106
406.767,-0.0278052
423.81,8.42177
440.852,17.3058
457.895,1.62104
474.937,12.5142
491.98,3.6994
509.023,13.4902
526.065,6.97741
543.108,9.85282
560.15,11.9248
577.193,6.31387
594.236,0.47835
611.278,7.87395
628.321,5.24938
645.363,5.18942
662.406,16.916
679.449,9.44308
696.491,13.1429
713.534,16.6092
730.576,6.84993
747.619,14.0152
764.662,17.1572
781.704,4.62349
798.747,11.1269
815.789,9.44237
832.832,11.4329
849.875,15.8024
866.917,9.01152
883.96,8.9476
901.003,6.67036
918.045,8.53819
935.088,6.88468
952.13,13.5484
969.173,14.7707
986.216,9.95009
1003.26,11.7792
1020.3,11.8949
1037.34,11.862
1054.39,13.013
1071.43,14.942
1088.47,8.5404
1105.51,9.69254
1122.56,12.1662
1139.6,11.8354
1156.64,9.56249
1173.68,11.3015
1190.73,12.5562
1207.77,15.1825
1224.81,5.28365
1241.85,3.25178
1258.9,17.0186
1275.94,9.38054
1292.98,10.6197
1310.03,4.28347
1327.07,10.7303
1344.11,-9.03869
1361.15,694.815
1378.2,8504.51
1395.24,2166.4
1412.28,-23.0322
1429.32,1.41823
1446.37,5.72963
1463.41,2.82847
1480.45,11.2808
1497.49,3.25984
1514.54,6.82909
1531.58,5.12096
1548.62,13.3507
1565.66,-2.82208
1582.71,12.8273
1599.75,4.96166
1616.79,13.0596
1633.83,7.91554
1650.88,13.5194
1667.92,8.76489
1684.96,5.01665
1702.01,14.0377
1719.05,12.1083
1736.09,10.6133
1753.13,10.5912
1770.18,17.5229
1787.22,6.47685
1804.26,6.97442
1821.3,2.06479
1838.35,8.51722
1855.39,6.37367
1872.43,13.2606
1889.47,14.5574
1906.52,14.5942
1923.56,12.0248
1940.6,5.93769
1957.64,9.45307
1974.69,14.9982
1991.73,10.2602
2008.77,-1.58302
2025.81,0.0
2042.86,0.0
2059.9,0.0
2076.94,0.0
2093.98,0.0
2111.03,0.0
2128.07,0.0
2145.11,0.0
2162.16,0.0
2179.2,0.0
2196.24,0.0
2213.28,0.0
2230.33,0.0
2247.37,0.0
2264.41,0.0
2281.45,0.0
2298.5,0.0
2315.54,0.0
2332.58,0.0
2349.62,0.0
2366.67,0.0
2383.71,0.0
2400.75,0.0
2417.79,0.0
2434.84,0.0
2451.88,0.0
2468.92,0.0
2485.96,0.0
2503.01,0.0
2520.05,0.0
2537.09,0.0
2554.14,0.0
2571.18,0.0
2588.22,0.0
2605.26,0.0
2622.31,0.0
2639.35,0.0
2656.39,0.0
2673.43,0.0
2690.48,0.0
2707.52,0.0
2724.56,0.0
2741.6,0.0
2758.65,0.0
2775.69,0.0
2792.73,0.0
2809.77,0.0
2826.82,0.0
2843.86,0.0
2860.9,0.0
2877.94,0.0
2894.99,0.0
2912.03,0.0
2929.07,0.0
2946.12,0.0
2963.16,0.0
2980.2,0.0
2997.24,0.0
3014.29,0.0
3031.33,0.0
3048.37,0.0
3065.41,0.0
3082.46,0.0
3099.5,0.0
3116.54,0.0
3133.58,0.0
3150.63,0.0
3167.67,0.0
3184.71,0.0
3201.75,0.0
3218.8,0.0
3235.84,0.0
3252.88,0.0
3269.92,0.0
3286.97,0.0
3304.01,0.0
3321.05,0.0
3338.1,0.0
3355.14,0.0
3372.18,0.0
3389.22,0.0
3406.27,0.0
3423.31,0.0
3440.35,0.0
3457.39,0.0
3474.44,0.0
3491.48,0.0
3500.0,0.0

File: Class_A_X127_Y53_prob0.570.txt
# Class A Classified Spectrum:
# Position: X=127, Y=53
# Data Type: processed
# Original Filename: Steno-CT-33_01_Y053_X127.txt
# Classification Probability: 0.5700
#
Wavenumber Intensity
100.0 14.837
117.043 75.3817
134.085 35.7151
151.128 36.0065
168.17 46.8365
185.213 30.4238
202.256 11.3143
219.298 13.1089
236.341 12.9961
253.383 12.6821
270.426 -0.0218265
287.469 18.8085
304.511 8.02977
321.554 18.2012
338.596 9.49118
355.639 13.3622
372.682 6.83812
389.724 13.3906
406.767 10.0199
423.81 2.46312
440.852 6.15991
457.895 7.35781
474.937 10.7958
491.98 6.94952
509.023 14.6714
526.065 3.16617
543.108 5.83347
560.15 11.6413
577.193 4.87028
594.236 8.4865
611.278 8.87214
628.321 11.736
645.363 6.10135
662.406 10.6777
679.449 19.386
696.491 15.0834
713.534 9.59143
730.576 5.06677
747.619 8.83026
764.662 9.00975
781.704 10.8468
798.747 10.4014
815.789 16.9413
832.832 15.9906
849.875 17.4697
866.917 20.6962
883.96 14.1694
901.003 -2.55275
918.045 0.907989
935.088 10.7584
952.13 12.3179
969.173 10.2313
986.216 10.5405
1003.26 14.7785
1020.3 49.2997
1037.34 8.2793
1054.39 16.8028
1071.43 20.2821
1088.47 13.3069
1105.51 19.2773
1122.56 3.35191
1139.6 9.07558
1156.64 2.42028
1173.68 0.548322
1190.73 9.4263
1207.77 14.449
1224.81 28.1097
1241.85 43.0049
1258.9 17.461
1275.94 11.5278
1292.98 21.0293
1310.03 13.2695
1327.07 7.6057
1344.11 13.0678
1361.15 15.4708
1378.2 10.5355
1395.24 9.18714
1412.28 7.91296
1429.32 9.79457
1446.37 14.5801
1463.41 11.9867
1480.45 10.0288
1497.49 9.64771
1514.54 11.1324
1531.58 10.8259
1548.62 4.82723
1565.66 0.202454
1582.71 12.9595
1599.75 9.86163
1616.79 7.13721
1633.83 13.4695
1650.88 -3.54415
1667.92 3.22436
1684.96 7.73498
1702.01 15.8075
1719.05 9.51323
1736.09 2.85528
1753.13 3.4606
1770.18 4.05039
1787.22 2.1645
1804.26 3.45775
1821.3 9.61775
1838.35 0.115963
1855.39 17.8812
1872.43 11.8159
1889.47 12.0714
1906.52 14.1575
1923.56 16.5111
1940.6 11.4003
1957.64 7.30937
1974.69 11.2885
1991.73 1.50057
2008.77 -1.07514
2025.81 0.0
2042.86 0.0
2059.9 0.0
2076.94 0.0
2093.98 0.0
2111.03 0.0
2128.07 0.0
2145.11 0.0
2162.16 0.0
2179.2 0.0
2196.24 0.0
2213.28 0.0
2230.33 0.0
2247.37 0.0
2264.41 0.0
2281.45 0.0
2298.5 0.0
2315.54 0.0
2332.58 0.0
2349.62 0.0
2366.67 0.0
2383.71 0.0
2400.75 0.0
2417.79 0.0
2434.84 0.0
2451.88 0.0
2468.92 0.0
2485.96 0.0
2503.01 0.0
2520.05 0.0
2537.09 0.0
2554.14 0.0
2571.18 0.0
2588.22 0.0
2605.26 0.0
2622.31 0.0
2639.35 0.0
2656.39 0.0
2673.43 0.0
2690.48 0.0
2707.52 0.0
2724.56 0.0
2741.6 0.0
2758.65 0.0
2775.69 0.0
2792.73 0.0
2809.77 0.0
2826.82 0.0
2843.86 0.0
2860.9 0.0
2877.94 0.0
2894.99 0.0
2912.03 0.0
2929.07 0.0
2946.12 0.0
2963.16 0.0
2980.2 0.0
2997.24 0.0
3014.29 0.0
3031.33 0.0
3048.37 0.0
3065.41 0.0
3082.46 0.0
3099.5 0.0
3116.54 0.0
3133.58 0.0
3150.63 0.0
3167.67 0.0
3184.71 0.0
3201.75 0.0
3218.8 0.0
3235.84 0.0
3252.88 0.0
3269.92 0.0
3286.97 0.0
3304.01 0.0
3321.05 0.0
3338.1 0.0
3355.14 0.0
3372.18 0.0
3389.22 0.0
3406.27 0.0
3423.31 0.0
3440.35 0.0
3457.39 0.0
3474.44 0.0
3491.48 0.0
3500.0 0.0

File: Class_A_X130_Y39_prob0.550.txt
# Class A Classified Spectrum:
# Position: X=130, Y=39
# Data Type: processed
# Original Filename: Steno-CT-33_01_Y039_X130.txt
# Classification Probability: 0.5500
#
Wavenumber Intensity
100.0 13.7166
117.043 91.5076
134.085 16.5683
151.128 25.7422
168.17 30.9862
185.213 22.6867
202.256 14.269
219.298 14.2694
236.341 2.74605
253.383 4.38555
270.426 7.45663
287.469 11.6359
304.511 0.508834
321.554 8.86739
338.596 5.0978
355.639 8.24544
372.682 19.27
389.724 12.3495
406.767 0.00201973
423.81 4.56302
440.852 5.71483
457.895 9.30045
474.937 16.4284
491.98 9.76475
509.023 8.40486
526.065 6.5791
543.108 5.64652
560.15 7.49035
577.193 -0.291955
594.236 7.75697
611.278 -4.98069
628.321 1.04347
645.363 4.63977
662.406 9.97405
679.449 16.992
696.491 11.1344
713.534 9.59045
730.576 3.2125
747.619 7.61442
764.662 5.2837
781.704 10.8686
798.747 12.4216
815.789 11.6209
832.832 14.5609
849.875 17.0397
866.917 8.1061
883.96 8.94715
901.003 1.82738
918.045 2.63964
935.088 11.0675
952.13 9.34153
969.173 5.58642
986.216 9.47707
1003.26 18.9691
1020.3 51.506
1037.34 17.282
1054.39 12.2222
1071.43 18.1353
1088.47 23.4144
1105.51 10.8442
1122.56 9.0484
1139.6 9.79682
1156.64 5.64716
1173.68 4.47458
1190.73 18.6993
1207.77 14.5389
1224.81 17.6891
1241.85 21.7448
1258.9 16.5345
1275.94 3.44534
1292.98 3.58917
1310.03 5.1085
1327.07 7.88779
1344.11 6.80073
1361.15 5.06043
1378.2 5.88486
1395.24 18.0416
1412.28 15.8529
1429.32 17.0016
1446.37 9.0708
1463.41 5.04587
1480.45 12.6813
1497.49 9.69794
1514.54 1.57716
1531.58 4.14853
1548.62 10.0294
1565.66 11.7697
1582.71 14.4365
1599.75 0.32083
1616.79 4.41939
1633.83 -2.67249
1650.88 1.91859
1667.92 5.29567
1684.96 15.3773
1702.01 4.41279
1719.05 0.890383
1736.09 8.10812
1753.13 -0.214798
1770.18 9.59583
1787.22 4.90623
1804.26 11.1202
1821.3 5.92414
1838.35 6.72292
1855.39 2.39816
1872.43 8.346
1889.47 -4.44418
1906.52 9.34591
1923.56 11.1589
1940.6 21.0251
1957.64 6.17315
1974.69 6.21169
1991.73 5.67287
2008.77 -0.798569
2025.81 0.0
2042.86 0.0
2059.9 0.0
2076.94 0.0
2093.98 0.0
2111.03 0.0
2128.07 0.0
2145.11 0.0
2162.16 0.0
2179.2 0.0
2196.24 0.0
2213.28 0.0
2230.33 0.0
2247.37 0.0
2264.41 0.0
2281.45 0.0
2298.5 0.0
2315.54 0.0
2332.58 0.0
2349.62 0.0
2366.67 0.0
2383.71 0.0
2400.75 0.0
2417.79 0.0
2434.84 0.0
2451.88 0.0
2468.92 0.0
2485.96 0.0
2503.01 0.0
2520.05 0.0
2537.09 0.0
2554.14 0.0
2571.18 0.0
2588.22 0.0
2605.26 0.0
2622.31 0.0
2639.35 0.0
2656.39 0.0
2673.43 0.0
2690.48 0.0
2707.52 0.0
2724.56 0.0
2741.6 0.0
2758.65 0.0
2775.69 0.0
2792.73 0.0
2809.77 0.0
2826.82 0.0
2843.86 0.0
2860.9 0.0
2877.94 0.0
2894.99 0.0
2912.03 0.0
2929.07 0.0
2946.12 0.0
2963.16 0.0
2980.2 0.0
2997.24 0.0
3014.29 0.0
3031.33 0.0
3048.37 0.0
3065.41 0.0
3082.46 0.0
3099.5 0.0
3116.54 0.0
3133.58 0.0
3150.63 0.0
3167.67 0.0
3184.71 0.0
3201.75 0.0
3218.8 0.0
3235.84 0.0
3252.88 0.0
3269.92 0.0
3286.97 0.0
3304.01 0.0
3321.05 0.0
3338.1 0.0
3355.14 0.0
3372.18 0.0
3389.22 0.0
3406.27 0.0
3423.31 0.0
3440.35 0.0
3457.39 0.0
3474.44 0.0
3491.48 0.0
3500.0 0.0