Folder: ClaritySpectra/__exampleData/ML Plastics copy/top class a spectra/All Class A spectra

Note: README.md
# ClariSpectra - Raman Spectrum Analysis Tool

ClariSpectra is a comprehensive desktop application for analyzing and identifying Raman spectra. It provides a user-friendly interface for importing, processing, and matching Raman spectra against a database of known materials.

## Features

- **Spectrum Analysis**
  - Import and visualize Raman spectra
  - Background subtraction
  - Peak detection and analysis
  - Interactive plotting and zooming

- **Database Management**
  - Store and organize Raman spectra
  - Edit metadata and classifications
  - Batch import capabilities
  - View and search database contents

- **Search and Matching**
  - Multiple search algorithms:
    - Correlation-based matching
    - Peak-based matching
    - Machine learning-based matching
  - Advanced filtering options
  - Confidence scoring for matches  

- **Export and Reporting**
  - Generate detailed match reports
  - Export results to PDF, TXT, and CSV formats
  - Create correlation heatmaps
  - Save processed spectra

## Installation

1. Clone the repository:
```bash
git clone https://github.com/yourusername/ClariSpectra.git
cd ClariSpectra
```

2. Install dependencies:
```bash
pip install -r requirements.txt
```

3. Run the application:
```bash
python raman_analysis_app.py
```

## Dependencies

- Python 3.6+
- Core requirements:
  - numpy >= 1.16.0
  - matplotlib >= 3.0.0
  - scipy >= 1.2.0
  - pandas >= 0.25.0

- Optional packages:
  - reportlab >= 3.5.0 (for PDF export)
  - scikit-learn >= 0.21.0 (for ML search functionality)
  - pyinstaller >= 5.0.0 (for packaging)

## Usage

1. **Importing Spectra**
   - Use the "Import" button to load Raman spectra files
   - Supported formats: CSV, TXT, and other common data formats

2. **Processing Spectra**
   - Apply background subtraction
   - Detect and analyze peaks
   - Adjust visualization parameters

3. **Database Operations**
   - Add spectra to the database
   - Edit metadata and classifications
   - Search and filter database contents

4. **Matching and Analysis**
   - Choose search algorithm
   - Set matching parameters
   - View and export results

## Project Structure

- `raman_analysis_app.py` - Main application GUI
- `raman_spectra.py` - Core spectrum processing functionality
- `check_dependencies.py` - Dependency verification
- `requirements.txt` - Project dependencies
- `raman_database.pkl` - Database of Raman spectra

## Contributing

Contributions are welcome! Please feel free to submit a Pull Request.

## License

MIT

## Author

Aaron Celestian, Ph.D.
Curator of Mineal Sciences
Natural History Museum of Los Angeles

## Acknowledgments

- RRUFF database for reference spectra
    www.rruff.info
- SLOPP and SLOPP-E for reference plastic spectra; 
    https://rochmanlab.wordpress.com/spectral-libraries-for-microplastics-research/
- Scientific community for Raman spectroscopy resources

File: Class_A_X60_Y27_prob0.670.csv
# Class A Classified Spectrum
# Position: X=60, Y=27
# Classification Probability: 0.6700
# Data Type: processed
# Original Filename: Steno-CT-33_01_Y027_X060.txt
#
Wavenumber,Intensity
100.0,2.43142
117.043,8.11306
134.085,1.99332
151.128,1.90449
168.17,9.86548
185.213,4.29826
202.256,1.79841
219.298,9.80209
236.341,9.38812
253.383,11.9462
270.426,9.05471
287.469,10.3595
304.511,3.99478
321.554,2.36619
338.596,5.95645
355.639,4.71334
372.682,12.3771
389.724,7.12531
406.767,6.33162
423.81,6.10806
440.852,3.674
457.895,13.9379
474.937,9.16197
491.98,8.90824
509.023,10.9774
526.065,12.8907
543.108,4.27106
560.15,-0.640779
577.193,21.0946
594.236,9.97198
611.278,6.16574
628.321,10.6575
645.363,10.8741
662.406,6.03468
679.449,16.9752
696.491,18.833
713.534,12.3418
730.576,3.11819
747.619,3.23157
764.662,12.19
781.704,7.93936
798.747,13.001
815.789,14.0598
832.832,9.79922
849.875,5.37186
866.917,9.01771
883.96,14.8605
901.003,4.98311
918.045,3.2036
935.088,3.46763
952.13,11.0017
969.173,8.45815
986.216,6.75833
1003.26,2.39709
1020.3,7.22704
1037.34,11.8989
1054.39,13.5192
1071.43,15.0644
1088.47,7.66755
1105.51,16.1934
1122.56,-1.47151
1139.6,3.67101
1156.64,10.875
1173.68,4.61732
1190.73,13.5465
1207.77,6.86594
1224.81,7.87508
1241.85,17.0031
1258.9,12.0745
1275.94,12.0793
1292.98,6.06735
1310.03,17.973
1327.07,31.7192
1344.11,33.6317
1361.15,26.4671
1378.2,23.1403
1395.24,44.4035
1412.28,29.092
1429.32,31.4111
1446.37,35.8425
1463.41,44.5924
1480.45,44.4254
1497.49,50.0103
1514.54,35.1924
1531.58,62.7262
1548.62,57.2939
1565.66,77.6386
1582.71,65.8698
1599.75,58.7797
1616.79,70.7933
1633.83,66.8381
1650.88,65.4667
1667.92,61.4382
1684.96,59.447
1702.01,53.6744
1719.05,63.9938
1736.09,51.549
1753.13,39.9
1770.18,47.6025
1787.22,44.7529
1804.26,50.3481
1821.3,35.7211
1838.35,25.8978
1855.39,21.8941
1872.43,28.5539
1889.47,21.61
1906.52,6.86485
1923.56,23.0771
1940.6,6.18879
1957.64,7.60547
1974.69,4.05046
1991.73,1.04368
2008.77,-0.134036
2025.81,0.0
2042.86,0.0
2059.9,0.0
2076.94,0.0
2093.98,0.0
2111.03,0.0
2128.07,0.0
2145.11,0.0
2162.16,0.0
2179.2,0.0
2196.24,0.0
2213.28,0.0
2230.33,0.0
2247.37,0.0
2264.41,0.0
2281.45,0.0
2298.5,0.0
2315.54,0.0
2332.58,0.0
2349.62,0.0
2366.67,0.0
2383.71,0.0
2400.75,0.0
2417.79,0.0
2434.84,0.0
2451.88,0.0
2468.92,0.0
2485.96,0.0
2503.01,0.0
2520.05,0.0
2537.09,0.0
2554.14,0.0
2571.18,0.0
2588.22,0.0
2605.26,0.0
2622.31,0.0
2639.35,0.0
2656.39,0.0
2673.43,0.0
2690.48,0.0
2707.52,0.0
2724.56,0.0
2741.6,0.0
2758.65,0.0
2775.69,0.0
2792.73,0.0
2809.77,0.0
2826.82,0.0
2843.86,0.0
2860.9,0.0
2877.94,0.0
2894.99,0.0
2912.03,0.0
2929.07,0.0
2946.12,0.0
2963.16,0.0
2980.2,0.0
2997.24,0.0
3014.29,0.0
3031.33,0.0
3048.37,0.0
3065.41,0.0
3082.46,0.0
3099.5,0.0
3116.54,0.0
3133.58,0.0
3150.63,0.0
3167.67,0.0
3184.71,0.0
3201.75,0.0
3218.8,0.0
3235.84,0.0
3252.88,0.0
3269.92,0.0
3286.97,0.0
3304.01,0.0
3321.05,0.0
3338.1,0.0
3355.14,0.0
3372.18,0.0
3389.22,0.0
3406.27,0.0
3423.31,0.0
3440.35,0.0
3457.39,0.0
3474.44,0.0
3491.48,0.0
3500.0,0.0

File: Class_A_X124_Y42_prob0.600.csv
# Class A Classified Spectrum
# Position: X=124, Y=42
# Classification Probability: 0.6000
# Data Type: processed
# Original Filename: Steno-CT-33_01_Y042_X124.txt
#
Wavenumber,Intensity
100.0,13.3308
117.043,83.4817
134.085,23.7569
151.128,33.1022
168.17,33.5179
185.213,42.211
202.256,14.9006
219.298,17.4978
236.341,14.5845
253.383,3.18018
270.426,16.5376
287.469,7.38292
304.511,4.59076
321.554,14.3343
338.596,7.89128
355.639,5.5462
372.682,5.40962
389.724,2.08669
406.767,17.292
423.81,5.5028
440.852,-1.39219
457.895,3.03908
474.937,1.93043
491.98,11.1964
509.023,7.84977
526.065,3.49218
543.108,4.45321
560.15,4.37044
577.193,15.7083
594.236,15.9347
611.278,6.21792
628.321,10.1126
645.363,7.1013
662.406,-0.0413406
679.449,10.4095
696.491,19.1102
713.534,6.18594
730.576,16.8407
747.619,3.87851
764.662,2.20701
781.704,18.9889
798.747,14.5617
815.789,15.8618
832.832,9.51529
849.875,6.13126
866.917,0.653513
883.96,4.47975
901.003,10.2786
918.045,2.50605
935.088,3.05182
952.13,7.05917
969.173,10.4841
986.216,1.18021
1003.26,19.7185
1020.3,62.1495
1037.34,18.8294
1054.39,6.99977
1071.43,8.05336
1088.47,2.47147
1105.51,10.6566
1122.56,6.42222
1139.6,14.8715
1156.64,11.4751
1173.68,4.31471
1190.73,5.3701
1207.77,16.1889
1224.81,31.9433
1241.85,59.9346
1258.9,29.9997
1275.94,10.5772
1292.98,5.23798
1310.03,10.36
1327.07,6.66036
1344.11,9.43063
1361.15,6.11652
1378.2,10.0682
1395.24,17.8799
1412.28,9.13271
1429.32,10.8919
1446.37,-1.02322
1463.41,-0.224983
1480.45,9.29645
1497.49,17.8769
1514.54,9.06957
1531.58,-0.636663
1548.62,15.4071
1565.66,5.25436
1582.71,9.7374
1599.75,10.3281
1616.79,9.77404
1633.83,16.3971
1650.88,2.28719
1667.92,3.03907
1684.96,6.71676
1702.01,12.1233
1719.05,12.4009
1736.09,7.70268
1753.13,13.3185
1770.18,4.68146
1787.22,11.4032
1804.26,9.27018
1821.3,5.65373
1838.35,5.66632
1855.39,21.0585
1872.43,16.3354
1889.47,12.1265
1906.52,13.1877
1923.56,9.85386
1940.6,3.364
1957.64,5.66555
1974.69,8.09117
1991.73,9.68427
2008.77,-1.02252
2025.81,0.0
2042.86,0.0
2059.9,0.0
2076.94,0.0
2093.98,0.0
2111.03,0.0
2128.07,0.0
2145.11,0.0
2162.16,0.0
2179.2,0.0
2196.24,0.0
2213.28,0.0
2230.33,0.0
2247.37,0.0
2264.41,0.0
2281.45,0.0
2298.5,0.0
2315.54,0.0
2332.58,0.0
2349.62,0.0
2366.67,0.0
2383.71,0.0
2400.75,0.0
2417.79,0.0
2434.84,0.0
2451.88,0.0
2468.92,0.0
2485.96,0.0
2503.01,0.0
2520.05,0.0
2537.09,0.0
2554.14,0.0
2571.18,0.0
2588.22,0.0
2605.26,0.0
2622.31,0.0
2639.35,0.0
2656.39,0.0
2673.43,0.0
2690.48,0.0
2707.52,0.0
2724.56,0.0
2741.6,0.0
2758.65,0.0
2775.69,0.0
2792.73,0.0
2809.77,0.0
2826.82,0.0
2843.86,0.0
2860.9,0.0
2877.94,0.0
2894.99,0.0
2912.03,0.0
2929.07,0.0
2946.12,0.0
2963.16,0.0
2980.2,0.0
2997.24,0.0
3014.29,0.0
3031.33,0.0
3048.37,0.0
3065.41,0.0
3082.46,0.0
3099.5,0.0
3116.54,0.0
3133.58,0.0
3150.63,0.0
3167.67,0.0
3184.71,0.0
3201.75,0.0
3218.8,0.0
3235.84,0.0
3252.88,0.0
3269.92,0.0
3286.97,0.0
3304.01,0.0
3321.05,0.0
3338.1,0.0
3355.14,0.0
3372.18,0.0
3389.22,0.0
3406.27,0.0
3423.31,0.0
3440.35,0.0
3457.39,0.0
3474.44,0.0
3491.48,0.0
3500.0,0.0

File: Class_A_X127_Y49_prob0.510.csv
# Class A Classified Spectrum
# Position: X=127, Y=49
# Classification Probability: 0.5100
# Data Type: processed
# Original Filename: Steno-CT-33_01_Y049_X127.txt
#
Wavenumber,Intensity
100.0,31.1872
117.043,154.575
134.085,27.9391
151.128,21.8621
168.17,53.3106
185.213,28.5189
202.256,11.1822
219.298,7.35147
236.341,-0.336633
253.383,6.18289
270.426,8.00589
287.469,8.34356
304.511,2.66896
321.554,6.15076
338.596,-2.1609
355.639,9.38924
372.682,0.803797
389.724,9.19868
406.767,7.13729
423.81,11.6797
440.852,7.7059
457.895,12.5054
474.937,15.0798
491.98,8.06157
509.023,-1.45573
526.065,9.24345
543.108,2.57827
560.15,13.3781
577.193,8.12359
594.236,6.80372
611.278,11.3537
628.321,-1.34922
645.363,19.0383
662.406,15.0445
679.449,21.7856
696.491,24.7402
713.534,14.8194
730.576,3.78587
747.619,8.2413
764.662,14.8401
781.704,4.67089
798.747,17.4623
815.789,22.0282
832.832,12.7969
849.875,15.0933
866.917,21.6009
883.96,18.1923
901.003,17.2636
918.045,19.2487
935.088,11.9889
952.13,12.2192
969.173,10.647
986.216,13.0893
1003.26,17.7874
1020.3,92.6139
1037.34,25.958
1054.39,19.4952
1071.43,11.3951
1088.47,5.19559
1105.51,14.6105
1122.56,17.9226
1139.6,10.7378
1156.64,2.42692
1173.68,12.3254
1190.73,13.1491
1207.77,4.4704
1224.81,29.1528
1241.85,47.4443
1258.9,18.5594
1275.94,4.37311
1292.98,13.634
1310.03,3.3844
1327.07,5.89469
1344.11,5.93552
1361.15,7.1821
1378.2,5.80596
1395.24,16.8489
1412.28,19.0766
1429.32,7.77685
1446.37,14.3147
1463.41,12.1566
1480.45,9.02294
1497.49,10.8725
1514.54,12.932
1531.58,6.22673
1548.62,10.8901
1565.66,12.5892
1582.71,12.7529
1599.75,0.849428
1616.79,6.28353
1633.83,5.63183
1650.88,8.83611
1667.92,8.05315
1684.96,10.5993
1702.01,13.0558
1719.05,5.34113
1736.09,9.40919
1753.13,7.87115
1770.18,6.92522
1787.22,14.6285
1804.26,7.71433
1821.3,10.4585
1838.35,3.98805
1855.39,8.98867
1872.43,7.18965
1889.47,11.053
1906.52,10.7433
1923.56,23.5033
1940.6,24.827
1957.64,19.8732
1974.69,23.7302
1991.73,14.0381
2008.77,-1.22951
2025.81,0.0
2042.86,0.0
2059.9,0.0
2076.94,0.0
2093.98,0.0
2111.03,0.0
2128.07,0.0
2145.11,0.0
2162.16,0.0
2179.2,0.0
2196.24,0.0
2213.28,0.0
2230.33,0.0
2247.37,0.0
2264.41,0.0
2281.45,0.0
2298.5,0.0
2315.54,0.0
2332.58,0.0
2349.62,0.0
2366.67,0.0
2383.71,0.0
2400.75,0.0
2417.79,0.0
2434.84,0.0
2451.88,0.0
2468.92,0.0
2485.96,0.0
2503.01,0.0
2520.05,0.0
2537.09,0.0
2554.14,0.0
2571.18,0.0
2588.22,0.0
2605.26,0.0
2622.31,0.0
2639.35,0.0
2656.39,0.0
2673.43,0.0
2690.48,0.0
2707.52,0.0
2724.56,0.0
2741.6,0.0
2758.65,0.0
2775.69,0.0
2792.73,0.0
2809.77,0.0
2826.82,0.0
2843.86,0.0
2860.9,0.0
2877.94,0.0
2894.99,0.0
2912.03,0.0
2929.07,0.0
2946.12,0.0
2963.16,0.0
2980.2,0.0
2997.24,0.0
3014.29,0.0
3031.33,0.0
3048.37,0.0
3065.41,0.0
3082.46,0.0
3099.5,0.0
3116.54,0.0
3133.58,0.0
3150.63,0.0
3167.67,0.0
3184.71,0.0
3201.75,0.0
3218.8,0.0
3235.84,0.0
3252.88,0.0
3269.92,0.0
3286.97,0.0
3304.01,0.0
3321.05,0.0
3338.1,0.0
3355.14,0.0
3372.18,0.0
3389.22,0.0
3406.27,0.0
3423.31,0.0
3440.35,0.0
3457.39,0.0
3474.44,0.0
3491.48,0.0
3500.0,0.0

File: Class_A_X257_Y23_prob0.880.csv
# Class A Classified Spectrum
# Position: X=257, Y=23
# Classification Probability: 0.8800
# Data Type: processed
# Original Filename: Steno-CT-33_01_Y023_X257.txt
#
Wavenumber,Intensity
100.0,3.19294
117.043,12.3034
134.085,8.48972
151.128,18.6002
168.17,13.3219
185.213,10.3966
202.256,-0.886942
219.298,7.22897
236.341,2.94713
253.383,9.97758
270.426,13.1623
287.469,9.95451
304.511,10.9444
321.554,10.0985
338.596,18.5841
355.639,4.44116
372.682,6.58938
389.724,8.56538
406.767,6.49208
423.81,4.33099
440.852,12.3354
457.895,10.533
474.937,9.40596
491.98,7.67961
509.023,8.74816
526.065,13.8399
543.108,8.92693
560.15,19.7713
577.193,9.36126
594.236,3.68329
611.278,4.15233
628.321,3.25286
645.363,6.174
662.406,2.48929
679.449,10.2251
696.491,12.2839
713.534,11.9361
730.576,10.9941
747.619,13.4367
764.662,14.3839
781.704,5.89081
798.747,4.05915
815.789,10.5688
832.832,16.8398
849.875,265.411
866.917,926.145
883.96,-82.3416
901.003,17.7235
918.045,10.9675
935.088,6.55065
952.13,9.89131
969.173,9.59665
986.216,7.54745
1003.26,6.00832
1020.3,15.2307
1037.34,7.38896
1054.39,6.17848
1071.43,7.07762
1088.47,4.41165
1105.51,4.16405
1122.56,9.52542
1139.6,12.4332
1156.64,13.5084
1173.68,11.4955
1190.73,5.376
1207.77,13.7179
1224.81,12.5132
1241.85,9.24279
1258.9,13.0509
1275.94,2.14684
1292.98,8.56648
1310.03,5.51529
1327.07,3.54389
1344.11,14.671
1361.15,13.9181
1378.2,14.1126
1395.24,8.21012
1412.28,14.6213
1429.32,12.7213
1446.37,6.19583
1463.41,9.7079
1480.45,5.11789
1497.49,10.6029
1514.54,2.69249
1531.58,3.27242
1548.62,15.3827
1565.66,4.99524
1582.71,6.66207
1599.75,5.80664
1616.79,7.16728
1633.83,4.99836
1650.88,9.39597
1667.92,2.31647
1684.96,12.7975
1702.01,9.35139
1719.05,14.8249
1736.09,8.04246
1753.13,7.17931
1770.18,6.21308
1787.22,10.9708
1804.26,9.26462
1821.3,7.12072
1838.35,9.09128
1855.39,7.47095
1872.43,14.1418
1889.47,10.4817
1906.52,9.34944
1923.56,11.4641
1940.6,14.2872
1957.64,1.15326
1974.69,3.18635
1991.73,0.392305
2008.77,-0.0628289
2025.81,0.0
2042.86,0.0
2059.9,0.0
2076.94,0.0
2093.98,0.0
2111.03,0.0
2128.07,0.0
2145.11,0.0
2162.16,0.0
2179.2,0.0
2196.24,0.0
2213.28,0.0
2230.33,0.0
2247.37,0.0
2264.41,0.0
2281.45,0.0
2298.5,0.0
2315.54,0.0
2332.58,0.0
2349.62,0.0
2366.67,0.0
2383.71,0.0
2400.75,0.0
2417.79,0.0
2434.84,0.0
2451.88,0.0
2468.92,0.0
2485.96,0.0
2503.01,0.0
2520.05,0.0
2537.09,0.0
2554.14,0.0
2571.18,0.0
2588.22,0.0
2605.26,0.0
2622.31,0.0
2639.35,0.0
2656.39,0.0
2673.43,0.0
2690.48,0.0
2707.52,0.0
2724.56,0.0
2741.6,0.0
2758.65,0.0
2775.69,0.0
2792.73,0.0
2809.77,0.0
2826.82,0.0
2843.86,0.0
2860.9,0.0
2877.94,0.0
2894.99,0.0
2912.03,0.0
2929.07,0.0
2946.12,0.0
2963.16,0.0
2980.2,0.0
2997.24,0.0
3014.29,0.0
3031.33,0.0
3048.37,0.0
3065.41,0.0
3082.46,0.0
3099.5,0.0
3116.54,0.0
3133.58,0.0
3150.63,0.0
3167.67,0.0
3184.71,0.0
3201.75,0.0
3218.8,0.0
3235.84,0.0
3252.88,0.0
3269.92,0.0
3286.97,0.0
3304.01,0.0
3321.05,0.0
3338.1,0.0
3355.14,0.0
3372.18,0.0
3389.22,0.0
3406.27,0.0
3423.31,0.0
3440.35,0.0
3457.39,0.0
3474.44,0.0
3491.48,0.0
3500.0,0.0